unique_id,age,gender,bfi_a2,bfi_a4,bfi_a5,bfi_a7,bfi_a9,bfi_c1,bfi_c3,bfi_c6,bfi_c7,bfi_c8,bfi_e1,bfi_e3,bfi_e4,bfi_e6,bfi_e8,bfi_n1,bfi_n3,bfi_n4,bfi_n6,bfi_n8,bfi_o1,bfi_o10,bfi_o2,bfi_o3,bfi_o4,bfi_o5,bfi_o6,bfi_o8,bfi_a1_reversed,bfi_a3_reversed,bfi_a6_reversed,bfi_a8_reversed,bfi_c2_reversed,bfi_c4_reversed,bfi_c5_reversed,bfi_c9_reversed,bfi_e2_reversed,bfi_e5_reversed,bfi_e7_reversed,bfi_n2_reversed,bfi_n5_reversed,bfi_n7_reversed,bfi_o7_reversed,bfi_o9_reversed,mean_bfi_a,mean_bfi_c,mean_bfi_e,mean_bfi_n,mean_bfi_o,exclusions_impossible_scores_bfi,exclusions_incomplete_bfi_a,exclusions_incomplete_bfi_c,exclusions_incomplete_bfi_e,exclusions_incomplete_bfi_n,exclusions_incomplete_bfi_o,Trial_reaction_time_in_ms,mean1,mean2,SD,iat_greenwald_d_score,n,proportion_fast_trials_iat,proportion_incorrect_trials,exclusions_iat_trial_number,exclusions_iat_performance,exclusions_iat_accuracy,master_exclusion
440109,46,female,NA,NA,NA,NA,NA,6,6,5,5,5,2,2,4,4,3,3,6,4,5,4,NA,NA,NA,NA,NA,NA,NA,NA,NA,NA,NA,NA,5,3,3,5,2,2,2,4,3,2,NA,NA,NA,4.777777777777778,2.625,3.875,NA,include,include,include,include,include,include,710.0333333333334,797,666.55,326.25872430032103,-0.3998360512190346,120,0,0.025,include,include,include,include
355243,27,male,4,4,4,5,4,NA,NA,NA,NA,NA,NA,NA,NA,NA,NA,NA,NA,NA,NA,NA,4,3,5,5,6,4,5,5,4,4,5,4,NA,NA,NA,NA,NA,NA,NA,NA,NA,NA,4,3,4.222222222222222,NA,NA,NA,4.4,include,include,include,include,include,include,936.1583333333335,1017.6,895.4375,355.7216359499561,-0.3434216186309966,120,0,0.008333333333333333,include,include,include,include
214625,20,female,4,4,5,4,5,NA,NA,NA,NA,NA,NA,NA,NA,NA,NA,NA,NA,NA,NA,NA,4,4,4,4,6,4,4,4,2,4,6,5,NA,NA,NA,NA,NA,NA,NA,NA,NA,NA,3,5,4.333333333333333,NA,NA,NA,4.2,include,include,include,include,include,include,664.65,708.475,642.7375,172.67040785235656,-0.3807108630693079,120,0,0.041666666666666664,include,include,include,include
214148,20,male,4,4,4,5,3,NA,NA,NA,NA,NA,NA,NA,NA,NA,NA,NA,NA,NA,NA,NA,3,2,6,4,4,4,4,4,1,6,2,3,NA,NA,NA,NA,NA,NA,NA,NA,NA,NA,2,5,3.5555555555555554,NA,NA,NA,3.8,include,include,include,include,include,include,756.3083333333333,736.45,766.2375,255.9658523651755,0.11637294476883331,120,0,0.11666666666666667,include,include,include,include
213400,29,female,4,3,5,5,5,NA,NA,NA,NA,NA,NA,NA,NA,NA,NA,NA,NA,NA,NA,NA,2,2,4,4,5,2,3,4,5,6,6,6,NA,NA,NA,NA,NA,NA,NA,NA,NA,NA,3,1,5,NA,NA,NA,3,include,include,include,include,include,include,847.1333333333334,926.475,807.4625000000001,465.05895412552263,-0.255908415361631,120,0,0.11666666666666667,include,include,include,include
216503,33,female,5,2,4,4,5,NA,NA,NA,NA,NA,NA,NA,NA,NA,NA,NA,NA,NA,NA,NA,4,5,6,5,5,4,5,6,4,1,2,3,NA,NA,NA,NA,NA,NA,NA,NA,NA,NA,5,3,3.3333333333333335,NA,NA,NA,4.8,include,include,include,include,include,include,1275.8833333333334,1014.9249999999998,1406.3625,1845.6137153463362,0.2120906973898086,120,0,0.19166666666666668,include,include,include,include
369479,28,female,NA,NA,NA,NA,NA,5,5,6,4,6,6,4,5,5,6,2,4,5,2,5,NA,NA,NA,NA,NA,NA,NA,NA,NA,NA,NA,NA,4,2,3,3,4,5,4,2,3,1,NA,NA,NA,4.222222222222222,4.875,3,NA,include,include,include,include,include,include,662.05,697.425,644.3625,342.6588535496585,-0.15485518453796532,120,0,0.03333333333333333,include,include,include,include
220525,33,female,NA,NA,NA,NA,NA,6,5,6,6,6,6,3,5,6,5,4,5,4,6,2,NA,NA,NA,NA,NA,NA,NA,NA,NA,NA,NA,NA,5,3,5,3,3,3,1,5,4,4,NA,NA,NA,5,4,4.25,NA,include,include,include,include,include,include,633.225,610.825,644.425,195.22219456839645,0.17211157816499234,120,0,0.016666666666666666,include,include,include,include
225948,23,male,5,3,2,4,5,NA,NA,NA,NA,NA,NA,NA,NA,NA,NA,NA,NA,NA,NA,NA,5,5,6,5,5,5,6,6,3,4,3,3,NA,NA,NA,NA,NA,NA,NA,NA,NA,NA,4,6,3.5555555555555554,NA,NA,NA,5.3,include,include,include,include,include,include,791.5666666666667,905.15,734.775,329.8252334098129,-0.5165614475236541,120,0,0.016666666666666666,include,include,include,include
227399,16,male,3,3,4,3,2,NA,NA,NA,NA,NA,NA,NA,NA,NA,NA,NA,NA,NA,NA,NA,3,5,6,5,3,2,4,5,2,2,1,1,NA,NA,NA,NA,NA,NA,NA,NA,NA,NA,3,3,2.3333333333333335,NA,NA,NA,3.9,include,include,include,include,include,include,739.35,718.5,749.775,308.7734381945018,0.10128785747529004,120,0,0.058333333333333334,include,include,include,include
228671,18,female,5,6,5,6,6,NA,NA,NA,NA,NA,NA,NA,NA,NA,NA,NA,NA,NA,NA,NA,4,5,6,4,5,4,5,5,5,6,3,6,NA,NA,NA,NA,NA,NA,NA,NA,NA,NA,5,6,5.333333333333333,NA,NA,NA,4.9,include,include,include,include,include,include,839.9416666666667,1062.6500000000003,728.5875,698.9842125125123,-0.47792567274045605,120,0,0.11666666666666667,include,include,include,include
232178,27,male,NA,NA,NA,NA,NA,5,3,2,5,2,4,2,NA,5,4,6,6,6,5,6,NA,NA,NA,NA,NA,NA,NA,NA,NA,NA,NA,NA,5,3,3,2,3,3,2,5,6,5,NA,NA,NA,3.3333333333333335,3.2857142857142856,5.625,NA,include,include,include,exclude,include,include,784.075,840.9,755.6625,242.99231106208723,-0.35078270430631375,120,0,0.05,include,include,include,exclude
232474,30,male,6,4,5,6,3,NA,NA,NA,NA,NA,NA,NA,NA,NA,NA,NA,NA,NA,NA,NA,6,5,6,6,6,6,6,6,4,5,3,2,NA,NA,NA,NA,NA,NA,NA,NA,NA,NA,6,6,4.222222222222222,NA,NA,NA,5.9,include,include,include,include,include,include,717.3166666666667,725.575,713.1875,310.6709189608116,-0.03987338126605477,120,0,0.06666666666666667,include,include,include,include
233978,44,male,NA,NA,NA,NA,NA,5,6,6,5,5,4,5,4,5,6,2,4,2,4,3,NA,NA,NA,NA,NA,NA,NA,NA,NA,NA,NA,NA,6,3,6,3,2,3,3,2,1,2,NA,NA,NA,5,4,2.5,NA,include,include,include,include,include,include,755.8166666666667,830.225,718.6125,199.05845530258435,-0.560702130589431,120,0,0.025,include,include,include,include
235367,21,male,2,5,2,1,4,NA,NA,NA,NA,NA,NA,NA,NA,NA,NA,NA,NA,NA,NA,NA,6,5,6,6,5,5,5,4,1,4,1,1,NA,NA,NA,NA,NA,NA,NA,NA,NA,NA,4,6,2.3333333333333335,NA,NA,NA,5.2,include,include,include,include,include,include,1284.0916666666665,1221.675,1315.3,859.4798993629599,0.10893215777285094,120,0,0.06666666666666667,include,include,include,include
238241,51,female,5,5,6,5,6,NA,NA,NA,NA,NA,NA,NA,NA,NA,NA,NA,NA,NA,NA,NA,5,4,6,4,5,4,5,5,5,6,2,1,NA,NA,NA,NA,NA,NA,NA,NA,NA,NA,3,5,4.555555555555555,NA,NA,NA,4.6,include,include,include,include,include,include,950.2416666666666,1122.825,863.9500000000002,413.42772926465636,-0.6261674814615076,120,0,0.03333333333333333,include,include,include,include
239346,20,female,NA,NA,NA,NA,NA,5,6,5,5,6,6,5,5,4,6,4,4,4,4,4,NA,NA,NA,NA,NA,NA,NA,NA,NA,NA,NA,NA,6,6,4,5,6,5,5,4,4,4,NA,NA,NA,5.333333333333333,5.25,4,NA,include,include,include,include,include,include,781.8416666666667,798.625,773.45,292.5951973457594,-0.08604037328148857,120,0,0.041666666666666664,include,include,include,include
241587,41,female,5,4,6,5,5,NA,NA,NA,NA,NA,NA,NA,NA,NA,NA,NA,NA,NA,NA,NA,6,3,6,6,6,5,5,5,5,2,2,3,NA,NA,NA,NA,NA,NA,NA,NA,NA,NA,4,5,4.111111111111111,NA,NA,NA,5.1,include,include,include,include,include,include,1167.8500000000008,1903.3999999999996,800.075,1961.4038774786386,-0.5625180069585214,120,0,0.041666666666666664,include,include,include,include
243747,23,female,NA,NA,NA,NA,NA,6,5,3,5,5,4,3,3,5,5,4,4,4,5,4,NA,NA,NA,NA,NA,NA,NA,NA,NA,NA,NA,NA,3,3,2,4,5,3,2,3,2,1,NA,NA,NA,4,3.75,3.375,NA,include,include,include,include,include,include,715.8416666666666,740.65,703.4375,272.58346947152114,-0.13651781625696802,120,0,0.09166666666666666,include,include,include,include
245717,24,male,NA,NA,NA,NA,NA,5,5,4,4,4,2,3,3,3,3,4,3,4,3,4,NA,NA,NA,NA,NA,NA,NA,NA,NA,NA,NA,NA,5,4,4,3,1,1,2,3,4,3,NA,NA,NA,4.222222222222222,2.25,3.5,NA,include,include,include,include,include,include,798.1166666666666,824.25,785.0499999999998,281.771651493606,-0.13911974392104415,120,0,0.041666666666666664,include,include,include,include
249730,37,female,4,4,4,4,6,NA,NA,NA,NA,NA,NA,NA,NA,NA,NA,NA,NA,NA,NA,NA,2,1,4,1,3,1,4,3,3,3,6,3,NA,NA,NA,NA,NA,NA,NA,NA,NA,NA,4,1,4.111111111111111,NA,NA,NA,2.4,include,include,include,include,include,include,1078.4583333333335,1140.175,1047.6,692.9119033559209,-0.13360284265812072,120,0,0.125,include,include,include,include
251939,28,male,NA,NA,NA,NA,NA,5,4,4,4,6,4,4,5,3,4,3,4,4,4,4,NA,NA,NA,NA,NA,NA,NA,NA,NA,NA,NA,NA,4,4,3,3,3,3,1,3,1,3,NA,NA,NA,4.111111111111111,3.375,3.25,NA,include,include,include,include,include,include,777.9916666666666,766.625,783.675,391.9460924996833,0.0435008801625283,120,0,0.058333333333333334,include,include,include,include
253188,32,female,5,4,6,6,6,NA,NA,NA,NA,NA,NA,NA,NA,NA,NA,NA,NA,NA,NA,NA,3,4,6,6,6,4,6,6,3,5,4,6,NA,NA,NA,NA,NA,NA,NA,NA,NA,NA,5,3,5,NA,NA,NA,4.9,include,include,include,include,include,include,850.8583333333332,931.525,810.5250000000001,348.74100803644313,-0.3469623508897912,120,0,0.075,include,include,include,include
253519,22,male,6,5,6,6,5,NA,NA,NA,NA,NA,NA,NA,NA,NA,NA,NA,NA,NA,NA,NA,5,5,5,6,6,5,5,6,5,6,5,4,NA,NA,NA,NA,NA,NA,NA,NA,NA,NA,2,1,5.333333333333333,NA,NA,NA,4.6,include,include,include,include,include,include,757.1416666666668,732.825,769.2999999999998,347.4975677524053,0.10496476345408125,120,0,0.15,include,include,include,include
254504,24,male,NA,NA,NA,NA,NA,4,4,4,4,4,4,3,4,6,4,4,2,2,4,1,NA,NA,NA,NA,NA,NA,NA,NA,NA,NA,NA,NA,3,3,2,4,3,3,3,1,3,2,NA,NA,NA,3.5555555555555554,3.75,2.375,NA,include,include,include,include,include,include,846.1916666666667,956.0499999999998,791.2625,461.63604376690716,-0.3569641110675612,120,0,0.03333333333333333,include,include,include,include
285703,33,male,NA,NA,NA,NA,NA,4,4,3,2,5,6,4,6,2,6,6,5,6,4,5,NA,NA,NA,NA,NA,NA,NA,NA,NA,NA,NA,NA,1,1,2,1,6,6,5,6,6,5,NA,NA,NA,2.5555555555555554,5.125,5.375,NA,include,include,include,include,include,include,1387.35,1671.7750000000003,1245.1375,817.5358615216518,-0.5218578414479755,120,0,0.016666666666666666,include,include,include,include
287257,21,female,NA,NA,NA,NA,NA,6,6,4,5,5,6,5,5,5,5,4,5,5,4,4,NA,NA,NA,NA,NA,NA,NA,NA,NA,NA,NA,NA,5,3,6,5,4,5,3,3,3,2,NA,NA,NA,5,4.75,3.75,NA,include,include,include,include,include,include,695.2999999999998,741.325,672.2875,281.8928695727623,-0.244906868714464,120,0,0.08333333333333333,include,include,include,include
289486,56,female,6,6,6,6,6,NA,NA,NA,NA,NA,NA,NA,NA,NA,NA,NA,NA,NA,NA,NA,4,5,5,4,5,4,5,4,5,6,6,6,NA,NA,NA,NA,NA,NA,NA,NA,NA,NA,2,6,5.888888888888889,NA,NA,NA,4.4,include,include,include,include,include,include,637.1749999999998,679.4,616.0625,237.12797177895314,-0.2671026092992613,120,0,0.025,include,include,include,include
289105,32,male,4,4,3,4,5,NA,NA,NA,NA,NA,NA,NA,NA,NA,NA,NA,NA,NA,NA,NA,6,4,6,5,5,5,5,5,2,4,3,5,NA,NA,NA,NA,NA,NA,NA,NA,NA,NA,4,5,3.7777777777777777,NA,NA,NA,5,include,include,include,include,include,include,874.8333333333335,1035.85,794.325,583.2235302819236,-0.41412080867733414,120,0,0.025,include,include,include,include
291619,22,female,NA,NA,NA,NA,NA,5,6,4,NA,4,6,4,5,4,5,1,3,6,2,6,NA,NA,NA,NA,NA,NA,NA,NA,NA,NA,NA,NA,1,3,6,3,2,3,3,3,3,1,NA,NA,NA,4,4,3.125,NA,include,include,exclude,include,include,include,775.8583333333331,836.125,745.7249999999999,387.109940213791,-0.23352539061661517,120,0,0.058333333333333334,include,include,include,exclude
293517,21,female,3,4,6,6,3,NA,NA,NA,NA,NA,NA,NA,NA,NA,NA,NA,NA,NA,NA,NA,4,5,6,4,5,4,5,4,3,4,3,4,NA,NA,NA,NA,NA,NA,NA,NA,NA,NA,3,5,4,NA,NA,NA,4.5,include,include,include,include,include,include,1188.2916666666665,1273.35,1145.7625,433.3475209108178,-0.29442305273106006,120,0,0.008333333333333333,include,include,include,include
296088,49,male,5,6,6,6,5,NA,NA,NA,NA,NA,NA,NA,NA,NA,NA,NA,NA,NA,NA,NA,5,3,6,4,1,5,4,6,6,4,3,6,NA,NA,NA,NA,NA,NA,NA,NA,NA,NA,4,4,5.222222222222222,NA,NA,NA,4.2,include,include,include,include,include,include,831.875,878.275,808.675,260.2744370141355,-0.2674100491713677,120,0,0.05,include,include,include,include
310835,30,male,3,3,2,3,4,NA,NA,NA,NA,NA,NA,NA,NA,NA,NA,NA,NA,NA,NA,NA,3,4,6,4,3,5,1,6,2,3,3,2,NA,NA,NA,NA,NA,NA,NA,NA,NA,NA,5,6,2.7777777777777777,NA,NA,NA,4.3,include,include,include,include,include,include,1036.1083333333331,1299.625,904.3499999999999,686.8732565169555,-0.5754700685311115,120,0,0.06666666666666667,include,include,include,include
310981,52,male,6,5,6,5,5,NA,NA,NA,NA,NA,NA,NA,NA,NA,NA,NA,NA,NA,NA,NA,6,2,5,6,6,5,4,6,4,5,2,5,NA,NA,NA,NA,NA,NA,NA,NA,NA,NA,2,5,4.777777777777778,NA,NA,NA,4.7,include,include,include,include,include,include,1308.9333333333325,1775.3000000000004,1075.75,1006.9907056336186,-0.6946936015261725,120,0,0.08333333333333333,include,include,include,include
311817,48,female,NA,NA,NA,NA,NA,5,6,6,5,6,5,6,5,6,5,1,3,1,1,1,NA,NA,NA,NA,NA,NA,NA,NA,NA,NA,NA,NA,5,3,6,6,2,5,6,1,1,1,NA,NA,NA,5.333333333333333,5,1.25,NA,include,include,include,include,include,include,864.0333333333335,979.55,806.275,403.4361014524878,-0.4294980032182528,120,0,0.05,include,include,include,include
316021,34,male,6,6,5,5,4,NA,NA,NA,NA,NA,NA,NA,NA,NA,NA,NA,NA,NA,NA,NA,6,1,6,6,5,6,2,6,3,6,1,2,NA,NA,NA,NA,NA,NA,NA,NA,NA,NA,6,1,4.222222222222222,NA,NA,NA,4.5,include,include,include,include,include,include,667.0333333333335,691.125,654.9875,229.03215925277573,-0.15778351877701247,120,0,0.16666666666666666,include,include,include,include
314655,19,female,NA,NA,NA,NA,NA,6,6,6,6,6,5,5,5,6,4,1,5,4,4,4,NA,NA,NA,NA,NA,NA,NA,NA,NA,NA,NA,NA,5,6,6,2,3,3,2,2,2,3,NA,NA,NA,5.444444444444445,4.125,3.125,NA,include,include,include,include,include,include,773.125,891.0250000000001,714.1749999999998,349.3762403955672,-0.5061878271967463,120,0,0.025,include,include,include,include
329537,17,male,3,3,4,2,4,NA,NA,NA,NA,NA,NA,NA,NA,NA,NA,NA,NA,NA,NA,NA,5,1,6,4,5,5,3,5,2,2,4,2,NA,NA,NA,NA,NA,NA,NA,NA,NA,NA,4,3,2.888888888888889,NA,NA,NA,4.1,include,include,include,include,include,include,934.6750000000004,1112.2249999999997,845.9000000000001,735.7697182959793,-0.36196787306876443,120,0,0.06666666666666667,include,include,include,include
337414,31,female,4,5,5,4,4,NA,NA,NA,NA,NA,NA,NA,NA,NA,NA,NA,NA,NA,NA,NA,3,3,5,2,4,1,4,4,3,3,2,3,NA,NA,NA,NA,NA,NA,NA,NA,NA,NA,3,3,3.6666666666666665,NA,NA,NA,3.2,include,include,include,include,include,include,733.3166666666667,762.675,718.6375,262.9103430057169,-0.16750006673964257,120,0,0.041666666666666664,include,include,include,include
339121,29,male,6,6,6,5,6,NA,NA,NA,NA,NA,NA,NA,NA,NA,NA,NA,NA,NA,NA,NA,5,1,6,4,5,6,3,5,3,4,6,6,NA,NA,NA,NA,NA,NA,NA,NA,NA,NA,6,5,5.333333333333333,NA,NA,NA,4.6,include,include,include,include,include,include,692.8416666666667,744.975,666.775,244.70939705209977,-0.31956271782791773,120,0,0.06666666666666667,include,include,include,include
343954,21,female,NA,NA,NA,NA,NA,6,6,6,6,5,6,4,5,6,6,4,2,1,4,2,NA,NA,NA,NA,NA,NA,NA,NA,NA,NA,NA,NA,6,3,3,4,5,2,6,5,2,1,NA,NA,NA,5,5,2.625,NA,include,include,include,include,include,include,924.875,979.025,897.8,373.40120947218975,-0.21752741539003911,120,0,0,include,include,include,include
347838,21,female,5,4,3,3,4,NA,NA,NA,NA,NA,NA,NA,NA,NA,NA,NA,NA,NA,NA,NA,5,2,6,4,6,4,4,4,2,3,3,2,NA,NA,NA,NA,NA,NA,NA,NA,NA,NA,3,NA,3.2222222222222223,NA,NA,NA,4.222222222222222,include,include,include,include,include,exclude,708.2666666666667,892.65,616.075,350.83841317173744,-0.7883258777157188,120,0,0.058333333333333334,include,include,include,exclude
348671,26,male,NA,NA,NA,NA,NA,4,4,3,3,4,2,2,3,2,3,4,4,4,4,5,NA,NA,NA,NA,NA,NA,NA,NA,NA,NA,NA,NA,2,2,2,2,2,2,2,5,4,3,NA,NA,NA,2.888888888888889,2.25,4.125,NA,include,include,include,include,include,include,760.6500000000001,813.875,734.0375,227.15702376413137,-0.35146392868265125,120,0,0.06666666666666667,include,include,include,include
354340,32,female,NA,NA,NA,NA,NA,5,6,4,4,5,4,4,3,4,4,2,2,2,2,3,NA,NA,NA,NA,NA,NA,NA,NA,NA,NA,NA,NA,5,1,5,5,3,3,5,3,2,3,NA,NA,NA,4.444444444444445,3.75,2.375,NA,include,include,include,include,include,include,789.2249999999998,893.875,736.9,480.27183238577845,-0.32684615131438693,120,0,0.041666666666666664,include,include,include,include
357132,51,female,4,6,6,5,5,NA,NA,NA,NA,NA,NA,NA,NA,NA,NA,NA,NA,NA,NA,NA,5,5,6,5,6,6,6,6,6,6,6,5,NA,NA,NA,NA,NA,NA,NA,NA,NA,NA,5,5,5.444444444444445,NA,NA,NA,5.5,include,include,include,include,include,include,1261.15,1426.325,1178.5625,396.14556042194494,-0.6254329841185189,120,0,0.016666666666666666,include,include,include,include
368445,25,male,6,1,6,4,6,NA,NA,NA,NA,NA,NA,NA,NA,NA,NA,NA,NA,NA,NA,NA,6,1,4,1,3,6,6,6,2,1,3,5,NA,NA,NA,NA,NA,NA,NA,NA,NA,NA,NA,3,3.7777777777777777,NA,NA,NA,4,include,include,include,include,include,exclude,660.65,668.45,656.75,237.85687561496073,-0.049189244455307805,120,0.008333333333333333,0.058333333333333334,include,include,include,exclude
361490,41,female,NA,NA,NA,NA,NA,6,6,5,5,6,6,6,6,5,3,3,4,4,4,2,NA,NA,NA,NA,NA,NA,NA,NA,NA,NA,NA,NA,1,2,3,3,3,4,2,3,2,2,NA,NA,NA,4.111111111111111,4.375,3,NA,include,include,include,include,include,include,619.5416666666666,604.075,627.275,175.79093273207332,0.13197495251566554,120,0,0.06666666666666667,include,include,include,include
365480,21,female,6,6,6,6,6,NA,NA,NA,NA,NA,NA,NA,NA,NA,NA,NA,NA,NA,NA,NA,5,4,6,5,6,5,6,6,6,6,5,2,NA,NA,NA,NA,NA,NA,NA,NA,NA,NA,3,4,5.444444444444445,NA,NA,NA,5,include,include,include,include,include,include,758.5583333333333,833.375,721.1500000000001,369.66232139987585,-0.3035878787294701,120,0,0.05,include,include,include,include
365691,32,female,5,5,3,5,5,NA,NA,NA,NA,NA,NA,NA,NA,NA,NA,NA,NA,NA,NA,NA,4,3,6,5,6,4,6,5,3,5,5,4,NA,NA,NA,NA,NA,NA,NA,NA,NA,NA,5,5,4.444444444444445,NA,NA,NA,4.9,include,include,include,include,include,include,683.875,717.275,667.175,248.31859998969134,-0.20175693646017603,120,0,0.041666666666666664,include,include,include,include
365766,20,female,NA,NA,NA,NA,NA,4,4,5,3,4,4,5,5,4,4,2,4,4,1,3,NA,NA,NA,NA,NA,NA,NA,NA,NA,NA,NA,NA,3,2,3,2,3,3,2,3,1,2,NA,NA,NA,3.3333333333333335,3.75,2.5,NA,include,include,include,include,include,include,755.0666666666667,908.8,678.2,295.5964127246579,-0.7801177215732965,120,0,0.09166666666666666,include,include,include,include
366258,25,male,5,5,6,6,6,NA,NA,NA,NA,NA,NA,NA,NA,NA,NA,NA,NA,NA,NA,NA,6,2,6,6,5,5,5,5,5,6,3,6,NA,NA,NA,NA,NA,NA,NA,NA,NA,NA,6,3,5.333333333333333,NA,NA,NA,4.9,include,include,include,include,include,include,972.9833333333331,1208.3499999999997,855.3000000000001,542.1814168666409,-0.6511658072686001,120,0,0.058333333333333334,include,include,include,include
372836,26,female,5,5,5,6,5,NA,NA,NA,NA,NA,NA,NA,NA,NA,NA,NA,NA,NA,NA,NA,6,5,5,6,6,6,6,5,2,4,2,3,NA,NA,NA,NA,NA,NA,NA,NA,NA,NA,4,6,4.111111111111111,NA,NA,NA,5.5,include,include,include,include,include,include,971.8499999999997,1097.1500000000003,909.2000000000002,591.9207681762141,-0.3175256049540192,120,0,0.08333333333333333,include,include,include,include
388154,19,female,5,5,3,6,5,NA,NA,NA,NA,NA,NA,NA,NA,NA,NA,NA,NA,NA,NA,NA,4,6,6,3,5,4,6,5,2,6,4,4,NA,NA,NA,NA,NA,NA,NA,NA,NA,NA,3,5,4.444444444444445,NA,NA,NA,4.7,include,include,include,include,include,include,604.7666666666669,750.9,531.7,273.20410486148495,-0.8023305510403469,120,0,0.05,include,include,include,include
491808,22,female,NA,NA,NA,NA,NA,5,6,5,6,6,2,5,3,2,3,2,4,3,4,4,NA,NA,NA,NA,NA,NA,NA,NA,NA,NA,NA,NA,5,5,6,5,3,2,3,2,2,4,NA,NA,NA,5.444444444444445,2.875,3.125,NA,include,include,include,include,include,include,723.0999999999999,686.8,741.25,290.0884362402889,0.1877013806744695,120,0,0.075,include,include,include,include
418670,17,male,4,5,5,4,4,NA,NA,NA,NA,NA,NA,NA,NA,NA,NA,NA,NA,NA,NA,NA,5,4,6,5,5,5,5,6,4,5,2,3,NA,NA,NA,NA,NA,NA,NA,NA,NA,NA,5,4,4,NA,NA,NA,5,include,include,include,include,include,include,580.075,585.55,577.3375,147.3170229542426,-0.05574712165172399,120,0,0.05,include,include,include,include
394075,21,female,5,5,3,5,6,NA,NA,NA,NA,NA,NA,NA,NA,NA,NA,NA,NA,NA,NA,NA,5,5,6,6,6,5,6,5,3,6,6,6,NA,NA,NA,NA,NA,NA,NA,NA,NA,NA,3,4,5,NA,NA,NA,5.1,include,include,include,include,include,include,754.5833333333333,732.05,765.85,342.8331682210652,0.09859022735573006,120,0,0.025,include,include,include,include
401021,20,female,NA,NA,NA,NA,NA,6,6,6,6,4,4,3,5,2,4,5,5,6,4,4,NA,NA,NA,NA,NA,NA,NA,NA,NA,NA,NA,NA,2,2,2,5,3,3,3,6,2,4,NA,NA,NA,4.333333333333333,3.375,4.5,NA,include,include,include,include,include,include,734.675,684,760.0125,318.4896648191878,0.23866551538855643,120,0,0.041666666666666664,include,include,include,include
419450,52,male,4,6,4,4,6,NA,NA,NA,NA,NA,NA,NA,NA,NA,NA,NA,NA,NA,NA,NA,6,6,6,6,6,6,6,6,5,6,5,3,NA,NA,NA,NA,NA,NA,NA,NA,NA,NA,5,6,4.777777777777778,NA,NA,NA,5.9,include,include,include,include,include,include,707.0666666666667,765.7,677.75,300.5025967346334,-0.29267633942500193,120,0,0.025,include,include,include,include
421489,18,female,5,3,5,4,5,NA,NA,NA,NA,NA,NA,NA,NA,NA,NA,NA,NA,NA,NA,NA,6,6,6,4,6,6,6,6,2,5,3,3,NA,NA,NA,NA,NA,NA,NA,NA,NA,NA,5,6,3.888888888888889,NA,NA,NA,5.7,include,include,include,include,include,include,626.075,682.325,597.95,260.1475070420013,-0.32433522411720633,120,0,0.06666666666666667,include,include,include,include
429123,43,female,NA,NA,NA,NA,NA,6,6,5,6,5,4,3,5,5,5,4,5,4,4,6,NA,NA,NA,NA,NA,NA,NA,NA,NA,NA,NA,NA,6,3,6,2,3,2,4,2,2,2,NA,NA,NA,5,3.875,3.625,NA,include,include,include,include,include,include,3498.6333333333346,4908.100000000001,2793.899999999999,3691.4607113923757,-0.5727272116090193,120,0,0.19166666666666668,include,include,include,include
429559,19,male,5,6,6,6,6,NA,NA,NA,NA,NA,NA,NA,NA,NA,NA,NA,NA,NA,NA,NA,4,5,6,3,5,5,6,4,3,4,6,5,NA,NA,NA,NA,NA,NA,NA,NA,NA,NA,3,4,5.222222222222222,NA,NA,NA,4.5,include,include,include,include,include,include,1515.5416666666663,2148.25,1199.1875,1476.1283842039838,-0.6429403500101321,120,0,0.06666666666666667,include,include,include,include
433267,34,female,NA,NA,NA,NA,NA,4,4,2,5,5,1,4,2,3,1,2,4,2,2,4,NA,NA,NA,NA,NA,NA,NA,NA,NA,NA,NA,NA,5,3,4,5,2,1,2,3,1,2,NA,NA,NA,4.111111111111111,2,2.5,NA,include,include,include,include,include,include,616.6499999999999,662.8,593.575,220.3706827486952,-0.31412980681709934,120,0,0.08333333333333333,include,include,include,include
435868,31,female,4,6,5,5,5,NA,NA,NA,NA,NA,NA,NA,NA,NA,NA,NA,NA,NA,NA,NA,5,6,6,5,5,5,6,6,5,5,3,3,NA,NA,NA,NA,NA,NA,NA,NA,NA,NA,6,6,4.555555555555555,NA,NA,NA,5.6,include,include,include,include,include,include,577.15,559.375,586.0375,170.40873503077805,0.15646204987780954,120,0.008333333333333333,0.016666666666666666,include,include,include,include
442495,37,female,6,6,5,6,5,NA,NA,NA,NA,NA,NA,NA,NA,NA,NA,NA,NA,NA,NA,NA,4,4,5,5,5,4,4,5,5,5,4,4,NA,NA,NA,NA,NA,NA,NA,NA,NA,NA,4,3,5.111111111111111,NA,NA,NA,4.3,include,include,include,include,include,include,587.8166666666667,603.1,580.175,129.1603123041664,-0.17749260272778514,120,0,0.058333333333333334,include,include,include,include
439554,37,male,NA,NA,NA,NA,NA,4,4,2,4,5,4,3,4,4,3,1,4,2,5,4,NA,NA,NA,NA,NA,NA,NA,NA,NA,NA,NA,NA,4,3,4,4,3,2,3,3,2,2,NA,NA,NA,3.7777777777777777,3.25,2.875,NA,include,include,include,include,include,include,665.8416666666665,700.425,648.5499999999998,329.0822735838484,-0.15763535189865716,120,0,0.008333333333333333,include,include,include,include
440148,35,female,NA,NA,NA,NA,NA,4,6,5,4,4,3,5,4,4,3,2,4,1,1,1,NA,NA,NA,NA,NA,NA,NA,NA,NA,NA,NA,NA,4,4,6,4,3,3,3,3,2,2,NA,NA,NA,4.555555555555555,3.5,2,NA,include,include,include,include,include,include,770.275,802.725,754.05,171.25988715860998,-0.2842171672980281,120,0,0.025,include,include,include,include
446741,38,male,NA,NA,NA,NA,NA,4,4,4,4,4,4,3,3,4,4,2,5,3,5,3,NA,NA,NA,NA,NA,NA,NA,NA,NA,NA,NA,NA,3,2,4,3,3,4,4,2,1,2,NA,NA,NA,3.5555555555555554,3.625,2.875,NA,include,include,include,include,include,include,1161.9583333333335,1224.9,1130.4875,482.63101405555284,-0.19562045796984953,120,0,0.03333333333333333,include,include,include,include
585230,24,female,5,4,5,4,4,NA,NA,NA,NA,NA,NA,NA,NA,NA,NA,NA,NA,NA,NA,NA,4,4,5,4,6,4,5,4,4,4,5,3,NA,NA,NA,NA,NA,NA,NA,NA,NA,NA,3,5,4.222222222222222,NA,NA,NA,4.4,include,include,include,include,include,include,596.3416666666667,648.2,570.4125,142.39998677139337,-0.5462605844541181,120,0,0.05,include,include,include,include
448449,60,female,4,5,6,5,6,NA,NA,NA,NA,NA,NA,NA,NA,NA,NA,NA,NA,NA,NA,NA,5,1,6,6,4,5,4,6,5,6,5,5,NA,NA,NA,NA,NA,NA,NA,NA,NA,NA,6,2,5.222222222222222,NA,NA,NA,4.5,include,include,include,include,include,include,815.0083333333333,783.525,830.75,350.79021229107246,0.13462462276688184,120,0,0.03333333333333333,include,include,include,include
448828,30,female,4,4,6,6,5,NA,NA,NA,NA,NA,NA,NA,NA,NA,NA,NA,NA,NA,NA,NA,5,2,6,4,4,4,4,5,3,5,6,5,NA,NA,NA,NA,NA,NA,NA,NA,NA,NA,3,4,4.888888888888889,NA,NA,NA,4.1,include,include,include,include,include,include,860.5416666666666,859.05,861.2874999999999,416.04116424957266,0.005378073595279467,120,0,0.008333333333333333,include,include,include,include
449383,42,male,NA,NA,NA,NA,NA,5,6,6,5,5,3,5,5,5,4,1,5,4,6,4,NA,NA,NA,NA,NA,NA,NA,NA,NA,NA,NA,NA,5,3,5,5,1,3,2,2,1,1,NA,NA,NA,5,3.5,3,NA,include,include,include,include,include,include,1011.2583333333334,1133.225,950.275,304.5834321772324,-0.6006564398208769,120,0,0,include,include,include,include
449631,32,male,4,4,4,3,4,NA,NA,NA,NA,NA,NA,NA,NA,NA,NA,NA,NA,NA,NA,NA,4,3,6,4,5,4,4,4,3,3,3,3,NA,NA,NA,NA,NA,NA,NA,NA,NA,NA,3,4,3.4444444444444446,NA,NA,NA,4.1,include,include,include,include,include,include,818.3416666666666,759.45,847.7875,430.84855682892635,0.20503143993372003,120,0,0.008333333333333333,include,include,include,include
466546,29,female,NA,NA,NA,NA,NA,5,5,6,5,6,2,3,4,4,3,2,3,4,2,2,NA,NA,NA,NA,NA,NA,NA,NA,NA,NA,NA,NA,3,6,4,3,2,1,2,2,2,1,NA,NA,NA,4.777777777777778,2.625,2.25,NA,include,include,include,include,include,include,1048.8833333333334,1356.625,895.0125,596.0353069364647,-0.7744717378784512,120,0,0.06666666666666667,include,include,include,include
467663,21,female,5,5,5,4,4,NA,NA,NA,NA,NA,NA,NA,NA,NA,NA,NA,NA,NA,NA,NA,6,5,6,6,6,6,6,6,4,4,3,4,NA,NA,NA,NA,NA,NA,NA,NA,NA,NA,4,2,4.222222222222222,NA,NA,NA,5.3,include,include,include,include,include,include,527.0833333333334,500.8,540.225,153.3217832176483,0.25713893468114807,60,0,0.06666666666666667,exclude,include,include,exclude
469605,25,male,4,5,4,5,5,NA,NA,NA,NA,NA,NA,NA,NA,NA,NA,NA,NA,NA,NA,NA,5,3,5,5,5,5,3,5,3,5,4,3,NA,NA,NA,NA,NA,NA,NA,NA,NA,NA,5,2,4.222222222222222,NA,NA,NA,4.3,include,include,include,include,include,include,684.2166666666666,719.75,666.45,548.9753355549035,-0.09708997207702308,120,0,0.016666666666666666,include,include,include,include
478588,28,female,NA,NA,NA,NA,NA,4,5,4,4,4,3,4,4,4,5,2,5,5,4,4,NA,NA,NA,NA,NA,NA,NA,NA,NA,NA,NA,NA,3,3,3,3,4,3,3,4,3,5,NA,NA,NA,3.6666666666666665,3.75,4,NA,include,include,include,include,include,include,733.425,726.05,737.1124999999998,330.2313592471982,0.033499241335584164,120,0,0.025,include,include,include,include
516095,33,female,NA,NA,NA,NA,NA,6,6,6,6,6,3,3,3,1,5,5,6,6,6,6,NA,NA,NA,NA,NA,NA,NA,NA,NA,NA,NA,NA,1,4,3,1,1,1,1,1,4,1,NA,NA,NA,4.333333333333333,2.25,4.375,NA,include,include,include,include,include,include,555.875,576.55,545.5375,115.84128249934234,-0.26771544073828774,120,0,0.11666666666666667,include,include,include,include
487509,19,female,5,5,5,6,4,NA,NA,NA,NA,NA,NA,NA,NA,NA,NA,NA,NA,NA,NA,NA,5,4,5,4,4,4,2,4,2,4,5,2,NA,NA,NA,NA,NA,NA,NA,NA,NA,NA,2,3,4.222222222222222,NA,NA,NA,3.7,include,include,include,include,include,include,639.5333333333333,622.875,647.8625,222.235129223677,0.11243721947690068,120,0,0.058333333333333334,include,include,include,include
488298,43,male,NA,NA,NA,NA,NA,4,5,4,5,5,5,5,5,5,5,3,4,4,4,2,NA,NA,NA,NA,NA,NA,NA,NA,NA,NA,NA,NA,3,3,6,3,4,3,5,1,4,1,NA,NA,NA,4.222222222222222,4.625,2.875,NA,include,include,include,include,include,include,1137.1166666666666,1016.325,1197.5124999999998,872.7081599784648,0.2076152238618587,120,0,0.15833333333333333,include,include,include,include
499594,20,female,NA,NA,NA,NA,NA,5,5,5,4,5,6,4,2,5,6,4,3,6,5,5,NA,NA,NA,NA,NA,NA,NA,NA,NA,NA,NA,NA,4,3,5,2,6,5,6,4,4,5,NA,NA,NA,4.222222222222222,5,4.5,NA,include,include,include,include,include,include,580.9833333333333,618.475,562.2375,223.89335634182092,-0.2511798515099373,120,0,0.025,include,include,include,include
510366,19,male,NA,6,5,5,6,NA,NA,NA,NA,NA,NA,NA,NA,NA,NA,NA,NA,NA,NA,NA,6,1,3,3,3,4,1,4,2,6,6,3,NA,NA,NA,NA,NA,NA,NA,NA,NA,NA,5,2,4.875,NA,NA,NA,3.2,include,exclude,include,include,include,include,631.1,711.9,590.7,218.19944619390705,-0.5554551219726437,120,0,0.03333333333333333,include,include,include,exclude
511349,45,male,5,5,5,5,6,NA,NA,NA,NA,NA,NA,NA,NA,NA,NA,NA,NA,NA,NA,NA,5,1,5,4,5,5,4,5,6,6,NA,5,NA,NA,NA,NA,NA,NA,NA,NA,NA,NA,6,4,5.375,NA,NA,NA,4.4,include,exclude,include,include,include,include,1049.1000000000008,1570.5,788.4000000000002,867.4756228866148,-0.9015815307840942,120,0,0.025,include,include,include,exclude
519468,27,female,5,5,5,5,5,NA,NA,NA,NA,NA,NA,NA,NA,NA,NA,NA,NA,NA,NA,NA,5,2,5,5,5,5,4,6,3,4,6,4,NA,NA,NA,NA,NA,NA,NA,NA,NA,NA,5,4,4.666666666666667,NA,NA,NA,4.6,include,include,include,include,include,include,590.4083333333333,561.275,604.975,212.05356449653533,0.20608000673676036,120,0.008333333333333333,0.16666666666666666,include,include,include,include
522741,46,male,NA,NA,NA,NA,NA,5,6,5,5,5,6,4,5,6,6,2,4,5,2,2,NA,NA,NA,NA,NA,NA,NA,NA,NA,NA,NA,NA,2,2,5,2,6,6,6,2,1,2,NA,NA,NA,4.111111111111111,5.625,2.5,NA,include,include,include,include,include,include,704.4749999999998,731.3999999999999,691.0125000000002,318.9070611564788,-0.126643479932803,120,0,0.05,include,include,include,include
527128,26,female,NA,NA,NA,NA,NA,5,5,5,5,5,6,5,5,6,6,2,3,2,5,3,NA,NA,NA,NA,NA,NA,NA,NA,NA,NA,NA,NA,3,3,3,3,2,4,3,1,2,1,NA,NA,NA,4.111111111111111,4.625,2.375,NA,include,include,include,include,include,include,595.1,604.75,590.275,185.9848371880502,-0.0778289252976267,120,0,0.15,include,include,include,include
539125,32,male,6,5,6,5,6,NA,NA,NA,NA,NA,NA,NA,NA,NA,NA,NA,NA,NA,NA,NA,5,6,5,3,6,3,6,5,2,6,5,4,NA,NA,NA,NA,NA,NA,NA,NA,NA,NA,2,4,5,NA,NA,NA,4.5,include,include,include,include,include,include,834.7,945.4750000000001,779.3125,598.9749451136914,-0.27741143658097556,120,0,0.041666666666666664,include,include,include,include
559109,58,female,NA,NA,NA,NA,NA,6,6,6,6,5,4,4,6,6,3,1,4,1,4,1,NA,NA,NA,NA,NA,NA,NA,NA,NA,NA,NA,NA,5,3,5,6,4,4,3,2,1,1,NA,NA,NA,5.333333333333333,4.25,1.875,NA,include,include,include,include,include,include,840.1749999999998,922.35,799.0875,439.9373649555507,-0.2801819300173649,120,0,0.041666666666666664,include,include,include,include
548429,19,male,5,6,5,5,5,NA,NA,NA,NA,NA,NA,NA,NA,NA,NA,NA,NA,NA,NA,NA,5,5,6,5,6,6,5,5,5,4,5,3,NA,NA,NA,NA,NA,NA,NA,NA,NA,NA,2,6,4.777777777777778,NA,NA,NA,5.1,include,include,include,include,include,include,793.3416666666664,963.875,708.0750000000002,442.3483264880504,-0.5782773092663888,120,0,0.016666666666666666,include,include,include,include
550775,17,male,NA,NA,NA,NA,NA,5,5,4,5,5,6,4,4,5,5,3,5,5,5,5,NA,NA,NA,NA,NA,NA,NA,NA,NA,NA,NA,NA,2,3,2,2,3,2,2,4,4,5,NA,NA,NA,3.6666666666666665,3.875,4.5,NA,include,include,include,include,include,include,744.7666666666667,744.325,744.9875,298.3990541509931,0.0022201813001212697,120,0,0,include,include,include,include
555831,18,female,5,5,6,5,5,NA,NA,NA,NA,NA,NA,NA,NA,NA,NA,NA,NA,NA,NA,NA,5,6,6,5,6,5,6,4,1,1,4,2,NA,NA,NA,NA,NA,NA,NA,NA,NA,NA,3,6,3.7777777777777777,NA,NA,NA,5.2,include,include,include,include,include,include,632.8666666666667,640.35,629.125,202.13266021336082,-0.055532836643773904,120,0,0.05,include,include,include,include
557720,36,male,NA,NA,NA,NA,NA,6,6,6,6,6,6,5,6,6,4,1,5,3,5,2,NA,NA,NA,NA,NA,NA,NA,NA,NA,NA,NA,NA,6,6,5,5,3,3,2,2,2,2,NA,NA,NA,5.777777777777778,4.375,2.75,NA,include,include,include,include,include,include,631.7166666666667,699.925,597.6125,160.59888879202273,-0.6370685424386452,120,0,0.041666666666666664,include,include,include,include
559640,28,male,NA,NA,NA,NA,NA,6,6,6,5,4,3,2,5,6,4,3,5,4,3,2,NA,NA,NA,NA,NA,NA,NA,NA,NA,NA,NA,NA,5,5,4,4,3,2,3,2,1,1,NA,NA,NA,5,3.5,2.625,NA,include,include,include,include,include,include,1040.7583333333334,1173.4,974.4375,682.4374628391047,-0.2915468608248264,120,0,0.08333333333333333,include,include,include,include
568128,39,male,6,6,6,6,6,NA,NA,NA,NA,NA,NA,NA,NA,NA,NA,NA,NA,NA,NA,NA,6,4,4,4,6,6,6,4,6,6,4,5,NA,NA,NA,NA,NA,NA,NA,NA,NA,NA,6,6,5.666666666666667,NA,NA,NA,5.2,include,include,include,include,include,include,744.9916666666666,724.7,755.1375000000002,459.8661021022805,0.06618774434744137,120,0,0.025,include,include,include,include
568742,21,female,3,6,6,6,5,NA,NA,NA,NA,NA,NA,NA,NA,NA,NA,NA,NA,NA,NA,NA,6,4,4,5,1,5,4,5,2,1,6,3,NA,NA,NA,NA,NA,NA,NA,NA,NA,NA,1,6,4.222222222222222,NA,NA,NA,4.1,include,include,include,include,include,include,776.7583333333334,912.1749999999998,709.05,430.26192913278356,-0.472096149453449,120,0,0.058333333333333334,include,include,include,include
575534,30,male,NA,NA,NA,NA,NA,6,5,5,2,4,2,2,1,1,3,4,4,2,4,3,NA,NA,NA,NA,NA,NA,NA,NA,NA,NA,NA,NA,2,2,4,1,4,1,1,2,2,2,NA,NA,NA,3.4444444444444446,1.875,2.875,NA,include,include,include,include,include,include,1099.0416666666665,1247.55,1024.7874999999997,597.7385589067528,-0.37267547271406865,120,0,0.016666666666666666,include,include,include,include
578307,22,male,6,6,5,6,4,NA,NA,NA,NA,NA,NA,NA,NA,NA,NA,NA,NA,NA,NA,NA,5,4,5,5,6,6,5,4,5,5,5,6,NA,NA,NA,NA,NA,NA,NA,NA,NA,NA,3,4,5.333333333333333,NA,NA,NA,4.7,include,include,include,include,include,include,881.2321428571429,857.85,894.2222222222222,245.98602998555003,0.14786295882070524,56,0,0,exclude,include,include,exclude
581474,22,female,NA,NA,NA,NA,NA,6,6,5,6,6,4,2,1,5,4,3,4,5,2,1,NA,NA,NA,NA,NA,NA,NA,NA,NA,NA,NA,NA,6,6,3,3,1,3,3,2,1,2,NA,NA,NA,5.222222222222222,2.875,2.5,NA,include,include,include,include,include,include,731.5166666666667,717,738.775,331.1443612009452,0.06575681953643915,120,0,0.06666666666666667,include,include,include,include
593293,29,female,5,6,1,6,6,NA,NA,NA,NA,NA,NA,NA,NA,NA,NA,NA,NA,NA,NA,NA,6,5,6,5,5,6,6,6,5,6,5,3,NA,NA,NA,NA,NA,NA,NA,NA,NA,NA,5,6,4.777777777777778,NA,NA,NA,5.6,include,include,include,include,include,include,872.6916666666667,998.95,809.5625,494.5410366236172,-0.38295608650195423,120,0,0.1,include,include,include,include
593817,22,female,NA,NA,NA,NA,NA,6,6,6,5,6,5,5,5,5,5,4,6,4,5,4,NA,NA,NA,NA,NA,NA,NA,NA,NA,NA,NA,NA,5,3,5,4,3,4,3,3,2,3,NA,NA,NA,5.111111111111111,4.375,3.875,NA,include,include,include,include,include,include,1516.7249999999997,1650.875,1449.6500000000003,1785.873079149785,-0.11267598036462842,120,0,0.016666666666666666,include,include,include,include
597411,53,female,6,6,5,5,6,NA,NA,NA,NA,NA,NA,NA,NA,NA,NA,NA,NA,NA,NA,NA,5,6,6,4,5,5,6,5,5,6,6,1,NA,NA,NA,NA,NA,NA,NA,NA,NA,NA,6,6,5.111111111111111,NA,NA,NA,5.4,include,include,include,include,include,include,847.575,953.275,794.725,419.33401905618757,-0.3780995406880057,120,0,0,include,include,include,include
627581,23,female,5,5,5,4,5,NA,NA,NA,NA,NA,NA,NA,NA,NA,NA,NA,NA,NA,NA,NA,4,4,6,6,5,5,6,6,3,5,3,4,NA,NA,NA,NA,NA,NA,NA,NA,NA,NA,5,4,4.333333333333333,NA,NA,NA,5.1,include,include,include,include,include,include,769.4333333333333,695.675,806.3125,434.9246381804076,0.2543831512118368,120,0,0.03333333333333333,include,include,include,include
628624,21,female,NA,NA,NA,NA,NA,6,6,6,6,6,5,5,5,1,5,1,1,1,6,1,NA,NA,NA,NA,NA,NA,NA,NA,NA,NA,NA,NA,6,6,5,5,3,5,2,1,2,1,NA,NA,NA,5.777777777777778,3.875,1.75,NA,include,include,include,include,include,include,633.7166666666667,604,648.575,286.3076204039993,0.15568918472062226,120,0,0.075,include,include,include,include
629563,42,male,6,4,5,4,3,NA,NA,NA,NA,NA,NA,NA,NA,NA,NA,NA,NA,NA,NA,NA,6,2,2,1,4,4,2,5,2,6,1,4,NA,NA,NA,NA,NA,NA,NA,NA,NA,NA,3,2,3.888888888888889,NA,NA,NA,3.1,include,include,include,include,include,include,441.9749999999999,509,408.46250000000015,382.43374693967496,-0.2628886723635784,120,0.4666666666666667,0.38333333333333336,include,exclude,include,exclude
630625,28,female,4,4,5,3,6,NA,NA,NA,NA,NA,NA,NA,NA,NA,NA,NA,NA,NA,NA,NA,4,4,6,4,5,5,6,5,3,6,3,4,NA,NA,NA,NA,NA,NA,NA,NA,NA,NA,6,2,4.222222222222222,NA,NA,NA,4.7,include,include,include,include,include,include,848.3666666666666,930.625,807.2375,397.1980089306413,-0.3106448099581133,240,0,0.008333333333333333,exclude,include,include,exclude
643556,27,female,NA,NA,NA,NA,NA,3,4,3,3,4,5,5,4,5,6,3,4,3,4,3,NA,NA,NA,NA,NA,NA,NA,NA,NA,NA,NA,NA,3,2,3,3,3,4,3,3,2,3,NA,NA,NA,3.111111111111111,4.375,3.125,NA,include,include,include,include,include,include,691.8333333333335,682.925,696.2875,372.38839246939267,0.035883234467622024,120,0.008333333333333333,0.058333333333333334,include,include,include,include
645951,20,female,NA,NA,NA,NA,NA,6,6,6,6,5,5,5,5,5,4,4,6,5,6,5,NA,NA,NA,NA,NA,NA,NA,NA,NA,NA,NA,NA,4,5,5,4,2,1,1,2,3,3,NA,NA,NA,5.222222222222222,3.5,4.25,NA,include,include,include,include,include,include,737.6666666666667,901.675,655.6625,378.7371837326469,-0.6495599338185443,120,0,0.075,include,include,include,include
648762,19,female,NA,NA,NA,NA,NA,6,6,6,5,5,5,5,5,4,5,2,4,5,5,5,NA,NA,NA,NA,NA,NA,NA,NA,NA,NA,NA,NA,5,5,5,5,5,5,3,3,2,2,NA,NA,NA,5.333333333333333,4.625,3.5,NA,include,include,include,include,include,include,670.975,719.05,646.9375,452.77011924634894,-0.15926956513833915,120,0.008333333333333333,0.1,include,include,include,include
652654,29,male,5,6,4,4,4,NA,NA,NA,NA,NA,NA,NA,NA,NA,NA,NA,NA,NA,NA,NA,5,5,6,5,6,5,6,NA,2,4,3,3,NA,NA,NA,NA,NA,NA,NA,NA,NA,NA,2,4,3.888888888888889,NA,NA,NA,4.888888888888889,include,include,include,include,include,exclude,792.3166666666667,888.9,744.025,360.053473697406,-0.40237078818396566,120,0,0.041666666666666664,include,include,include,exclude
662985,15,female,NA,NA,NA,NA,NA,5,6,6,6,5,5,6,5,4,4,1,4,2,4,3,NA,NA,NA,NA,NA,NA,NA,NA,NA,NA,NA,NA,5,3,6,3,3,3,2,3,2,2,NA,NA,NA,5,4,2.625,NA,include,include,include,include,include,include,589.6833333333333,594.325,587.3625,194.178553512631,-0.03585617399064203,120,0,0.09166666666666666,include,include,include,include
659647,51,female,NA,NA,NA,NA,NA,5,3,1,2,5,4,3,5,4,5,2,5,4,6,3,NA,NA,NA,NA,NA,NA,NA,NA,NA,NA,NA,NA,2,1,1,1,3,4,2,5,3,2,NA,NA,NA,2.3333333333333335,3.75,3.75,NA,include,include,include,include,include,include,778.2666666666667,790.475,772.1625,300.3701563276966,-0.06096644295121485,120,0,0.016666666666666666,include,include,include,include
669471,26,male,4,6,4,3,2,NA,NA,NA,NA,NA,NA,NA,NA,NA,NA,NA,NA,NA,NA,NA,3,3,4,4,3,4,4,5,4,6,2,3,NA,NA,NA,NA,NA,NA,NA,NA,NA,NA,3,3,3.7777777777777777,NA,NA,NA,3.6,include,include,include,include,include,include,986.8333333333335,1189.825,885.3375,423.40350330464224,-0.7191426089380248,120,0,0.05,include,include,include,include
201268,NA,not indicated,4,2,5,5,5,NA,NA,NA,NA,NA,NA,NA,NA,NA,NA,NA,NA,NA,NA,NA,6,5,5,6,6,6,4,3,2,5,5,5,NA,NA,NA,NA,NA,NA,NA,NA,NA,NA,1,5,4.222222222222222,NA,NA,NA,4.7,include,include,include,include,include,include,791.1999999999996,1053.7750000000003,659.9125,441.05251502332834,-0.8930059042496741,120,0,0.025,include,include,include,include
196719,NA,not indicated,NA,NA,NA,NA,NA,6,6,6,5,4,6,6,6,6,6,6,5,6,4,4,NA,NA,NA,NA,NA,NA,NA,NA,NA,NA,NA,NA,1,1,1,1,3,6,3,1,1,1,NA,NA,NA,3.4444444444444446,5.25,3.5,NA,include,include,include,include,include,include,780.0833333333334,680.1,830.075,1043.2188276718182,0.14376178422191976,120,0,0.025,include,include,include,include
194849,NA,not indicated,NA,NA,NA,NA,NA,6,6,4,5,5,6,5,5,6,5,3,5,6,4,4,NA,NA,NA,NA,NA,NA,NA,NA,NA,NA,NA,NA,2,2,3,2,4,4,3,4,3,2,NA,NA,NA,3.888888888888889,4.75,3.875,NA,include,include,include,include,include,include,731.7833333333333,742.575,726.3875,229.38061222803123,-0.07057048040271044,120,0,0.03333333333333333,include,include,include,include
193446,NA,not indicated,NA,NA,NA,NA,NA,6,6,6,5,5,2,5,6,6,4,2,4,4,1,2,NA,NA,NA,NA,NA,NA,NA,NA,NA,NA,NA,NA,6,5,6,3,3,3,2,2,2,2,NA,NA,NA,5.333333333333333,3.875,2.375,NA,include,include,include,include,include,include,997.5250000000001,1185.05,903.7625,596.8952438601409,-0.4712510325612657,120,0,0.125,include,include,include,include
193083,NA,not indicated,NA,NA,NA,NA,NA,5,4,5,5,5,4,4,4,3,3,1,2,2,3,2,NA,NA,NA,NA,NA,NA,NA,NA,NA,NA,NA,NA,3,6,2,3,3,3,3,2,1,2,NA,NA,NA,4.222222222222222,3.375,1.875,NA,include,include,include,include,include,include,657.2583333333334,709.1499999999999,631.3125,192.73556996561894,-0.4038564340452822,120,0,0.11666666666666667,include,include,include,include
186334,NA,not indicated,NA,NA,NA,NA,NA,4,5,4,5,4,4,2,4,4,4,4,3,3,4,4,NA,NA,NA,NA,NA,NA,NA,NA,NA,NA,NA,NA,3,3,3,2,4,3,2,3,4,3,NA,NA,NA,3.6666666666666665,3.375,3.5,NA,include,include,include,include,include,include,547.475,580.9,530.7625,208.0870843273689,-0.24094479559876048,120,0,0.058333333333333334,include,include,include,include
181481,NA,not indicated,4,5,5,5,5,NA,NA,NA,NA,NA,NA,NA,NA,NA,NA,NA,NA,NA,NA,NA,3,3,4,4,3,3,4,4,4,5,3,4,NA,NA,NA,NA,NA,NA,NA,NA,NA,NA,4,3,4.444444444444445,NA,NA,NA,3.5,include,include,include,include,include,include,628.1,691.075,596.6125,199.40716337865763,-0.47371668298908426,120,0,0.05,include,include,include,include
180366,NA,not indicated,5,6,6,6,5,NA,NA,NA,NA,NA,NA,NA,NA,NA,NA,NA,NA,NA,NA,NA,5,5,1,4,6,6,1,6,4,6,5,2,NA,NA,NA,NA,NA,NA,NA,NA,NA,NA,4,6,5,NA,NA,NA,4.4,include,include,include,include,include,include,1030.6166666666666,1392.775,849.5374999999999,634.9842872843699,-0.8555132951765749,120,0,0.041666666666666664,include,include,include,include
179098,NA,not indicated,4,5,2,5,3,NA,NA,NA,NA,NA,NA,NA,NA,NA,NA,NA,NA,NA,NA,NA,5,0,6,3,6,7,5,7,3,7,5,5,NA,NA,NA,NA,NA,NA,NA,NA,NA,NA,6,5,4.333333333333333,NA,NA,NA,5,exclude,include,include,include,include,include,729.5250000000001,734.35,727.1125,335.4189895182021,-0.021577490321570813,120,0,0.03333333333333333,include,include,include,exclude
175558,NA,not indicated,NA,NA,NA,NA,NA,5,3,3,4,6,6,3,5,5,5,1,4,5,4,5,NA,NA,NA,NA,NA,NA,NA,NA,NA,NA,NA,NA,2,2,3,2,5,3,2,3,2,2,NA,NA,NA,3.3333333333333335,4.25,3.25,NA,include,include,include,include,include,include,905.5,983.625,866.4375,453.0089690617838,-0.25868693117203456,120,0,0.025,include,include,include,include
173471,NA,not indicated,4,5,4,5,6,NA,NA,NA,NA,NA,NA,NA,NA,NA,NA,NA,NA,NA,NA,NA,4,5,5,4,6,5,6,5,5,3,4,3,NA,NA,NA,NA,NA,NA,NA,NA,NA,NA,5,5,4.333333333333333,NA,NA,NA,5,include,include,include,include,include,include,701.5833333333333,711.975,696.3875,240.1566919631387,-0.06490554093072068,120,0,0.058333333333333334,include,include,include,include
173044,NA,not indicated,6,5,6,6,3,NA,NA,NA,NA,NA,NA,NA,NA,NA,NA,NA,NA,NA,NA,NA,6,5,6,6,6,6,6,6,6,2,2,2,NA,NA,NA,NA,NA,NA,NA,NA,NA,NA,6,6,4.222222222222222,NA,NA,NA,5.9,include,include,include,include,include,include,727.5083333333334,819.725,681.4,512.0460193970774,-0.270141734844213,120,0,0.10833333333333334,include,include,include,include
170731,NA,not indicated,6,5,5,5,6,NA,NA,NA,NA,NA,NA,NA,NA,NA,NA,NA,NA,NA,NA,NA,5,5,6,5,6,6,6,6,2,5,3,6,NA,NA,NA,NA,NA,NA,NA,NA,NA,NA,5,5,4.777777777777778,NA,NA,NA,5.5,include,include,include,include,include,include,985.5,1038.675,958.9125,540.4819977723276,-0.14757660815485485,120,0,0.05,include,include,include,include
164811,NA,not indicated,4,4,5,5,4,NA,NA,NA,NA,NA,NA,NA,NA,NA,NA,NA,NA,NA,NA,NA,5,6,6,6,6,5,5,4,2,4,6,3,NA,NA,NA,NA,NA,NA,NA,NA,NA,NA,4,6,4.111111111111111,NA,NA,NA,5.3,include,include,include,include,include,include,903.125,1082.4249999999997,813.4749999999999,769.8935816727143,-0.34933399420691863,120,0,0.15833333333333333,include,include,include,include
164203,NA,not indicated,NA,NA,NA,NA,NA,3,6,6,5,6,2,5,4,5,6,4,4,3,4,1,NA,NA,NA,NA,NA,NA,NA,NA,NA,NA,NA,NA,6,6,1,4,2,3,3,1,1,1,NA,NA,NA,4.777777777777778,3.75,2.375,NA,include,include,include,include,include,include,793.425,816.825,781.725,428.90994652361564,-0.08183536027665292,120,0,0.016666666666666666,include,include,include,include
163143,NA,not indicated,4,5,2,5,5,NA,NA,NA,NA,NA,NA,NA,NA,NA,NA,NA,NA,NA,NA,NA,1,1,4,4,3,1,3,3,3,6,4,5,NA,NA,NA,NA,NA,NA,NA,NA,NA,NA,2,1,4.333333333333333,NA,NA,NA,2.3,include,include,include,include,include,include,660.5666666666667,755.725,612.9875,178.71204637127093,-0.7987010551234223,120,0,0.03333333333333333,include,include,include,include
162402,NA,not indicated,5,6,1,1,5,NA,NA,NA,NA,NA,NA,NA,NA,NA,NA,NA,NA,NA,NA,NA,2,4,6,4,5,4,4,2,1,2,1,1,NA,NA,NA,NA,NA,NA,NA,NA,NA,NA,5,NA,2.5555555555555554,NA,NA,NA,4,include,include,include,include,include,exclude,1514.0749999999994,2024.3499999999997,1258.9375,1402.0780985122512,-0.5459128851753557,120,0,0.06666666666666667,include,include,include,exclude
214776,48,male,NA,NA,NA,NA,NA,6,6,5,6,3,4,3,5,4,5,2,4,2,4,3,NA,NA,NA,NA,NA,NA,NA,NA,NA,NA,NA,NA,3,2,3,4,3,3,4,2,1,1,NA,NA,NA,4.222222222222222,3.875,2.375,NA,include,include,include,include,include,include,1187.7583333333334,1492.5,1035.3875,670.5676887086463,-0.6816798776575259,120,0,0.008333333333333333,include,include,include,include
233700,36,male,5,4,4,4,4,NA,NA,NA,NA,NA,NA,NA,NA,NA,NA,NA,NA,NA,NA,NA,6,4,6,5,6,4,5,6,3,3,3,1,NA,NA,NA,NA,NA,NA,NA,NA,NA,NA,5,4,3.4444444444444446,NA,NA,NA,5.1,include,include,include,include,include,include,1522.6,1478.45,1544.6750000000002,3781.5629341860867,0.017512600253538787,120,0,0.016666666666666666,include,include,include,include
246726,23,female,5,6,6,6,5,NA,NA,NA,NA,NA,NA,NA,NA,NA,NA,NA,NA,NA,NA,NA,4,2,5,4,4,5,5,6,5,6,6,5,NA,NA,NA,NA,NA,NA,NA,NA,NA,NA,3,3,5.555555555555555,NA,NA,NA,4.1,include,include,include,include,include,include,660.4916666666666,657.075,662.2,258.8694553012294,0.019797623454788724,120,0,0.1,include,include,include,include
298159,29,male,NA,NA,NA,NA,NA,5,5,4,4,5,4,4,6,5,6,2,1,1,6,4,NA,NA,NA,NA,NA,NA,NA,NA,NA,NA,NA,NA,6,3,4,3,2,3,6,3,1,2,NA,NA,NA,4.333333333333333,4.5,2.5,NA,include,include,include,include,include,include,1067.0333333333338,1314.7,943.1999999999999,743.2195908505707,-0.499852270544753,120,0,0.03333333333333333,include,include,include,include
343463,41,female,5,4,5,6,5,NA,NA,NA,NA,NA,NA,NA,NA,NA,NA,NA,NA,NA,NA,NA,4,5,6,5,5,3,5,5,3,5,3,5,NA,NA,NA,NA,NA,NA,NA,NA,NA,NA,3,5,4.555555555555555,NA,NA,NA,4.6,include,include,include,include,include,include,579.8666666666666,579.925,579.8375,214.80430544068318,-4.073475148482991e-4,120,0,0.19166666666666668,include,include,include,include
343750,27,male,4,5,5,5,5,NA,NA,NA,NA,NA,NA,NA,NA,NA,NA,NA,NA,NA,NA,NA,4,5,6,2,4,4,6,5,3,5,3,4,NA,NA,NA,NA,NA,NA,NA,NA,NA,NA,3,5,4.333333333333333,NA,NA,NA,4.4,include,include,include,include,include,include,706.2416666666666,780.025,669.35,266.3868103023895,-0.415467266845408,120,0,0.008333333333333333,include,include,include,include
348917,31,female,6,6,6,5,6,NA,NA,NA,NA,NA,NA,NA,NA,NA,NA,NA,NA,NA,NA,NA,5,5,6,4,6,4,6,5,3,6,6,5,NA,NA,NA,NA,NA,NA,NA,NA,NA,NA,6,6,5.444444444444445,NA,NA,NA,5.3,include,include,include,include,include,include,795.3916666666668,898.275,743.9500000000002,380.83570854734967,-0.40522723194380406,120,0,0.11666666666666667,include,include,include,include
350255,26,male,5,6,1,6,6,NA,NA,NA,NA,NA,NA,NA,NA,NA,NA,NA,NA,NA,NA,NA,5,1,6,4,5,5,2,5,3,5,4,6,NA,NA,NA,NA,NA,NA,NA,NA,NA,NA,6,3,4.666666666666667,NA,NA,NA,4.2,include,include,include,include,include,include,886.1833333333334,910.05,874.25,362.72926643474915,-0.09869619937722882,120,0,0.09166666666666666,include,include,include,include
353512,42,male,6,4,3,5,6,NA,NA,NA,NA,NA,NA,NA,NA,NA,NA,NA,NA,NA,NA,NA,6,6,6,6,6,6,6,6,5,6,5,5,NA,NA,NA,NA,NA,NA,NA,NA,NA,NA,6,6,5,NA,NA,NA,6,include,include,include,include,include,include,1026.8916666666669,1232.55,924.0625,578.762063356257,-0.5330126480838645,120,0,0.008333333333333333,include,include,include,include
360521,29,male,6,6,6,6,6,NA,NA,NA,NA,NA,NA,NA,NA,NA,NA,NA,NA,NA,NA,NA,4,4,6,4,6,4,6,6,4,3,3,3,NA,NA,NA,NA,NA,NA,NA,NA,NA,NA,5,3,4.777777777777778,NA,NA,NA,4.8,include,include,include,include,include,include,928.8416666666664,1110.9,837.8125,348.3999680612758,-0.7838333095138805,120,0,0,include,include,include,include
450960,38,female,NA,NA,NA,NA,NA,5,6,5,6,6,4,5,5,5,5,2,4,2,4,2,NA,NA,NA,NA,NA,NA,NA,NA,NA,NA,NA,NA,3,3,4,3,3,3,3,3,2,2,NA,NA,NA,4.555555555555555,4.125,2.625,NA,include,include,include,include,include,include,947.425,950.425,945.925,230.59756725778811,-0.019514516365081117,120,0,0.008333333333333333,include,include,include,include
453001,20,male,6,6,6,5,6,NA,NA,NA,NA,NA,NA,NA,NA,NA,NA,NA,NA,NA,NA,NA,5,3,6,6,5,6,5,6,6,5,6,4,NA,NA,NA,NA,NA,NA,NA,NA,NA,NA,6,2,5.555555555555555,NA,NA,NA,5,include,include,include,include,include,include,759.55,756.2,761.2250000000001,363.4095971409087,0.013827372858432501,120,0,0.1,include,include,include,include
455618,25,female,NA,NA,NA,NA,NA,4,4,2,4,2,3,4,6,1,1,3,6,6,2,5,NA,NA,NA,NA,NA,NA,NA,NA,NA,NA,NA,NA,4,6,6,1,1,1,1,4,1,6,NA,NA,NA,3.6666666666666665,2.25,4.125,NA,include,include,include,include,include,include,803.7000000000002,1030,690.55,418.5540054308223,-0.8110064545926406,120,0,0.058333333333333334,include,include,include,include
462128,44,female,NA,NA,NA,NA,NA,5,6,3,5,5,5,1,4,5,5,2,4,5,4,4,NA,NA,NA,NA,NA,NA,NA,NA,NA,NA,NA,NA,3,3,3,2,5,4,3,3,2,1,NA,NA,NA,3.888888888888889,4,3.125,NA,include,include,include,include,include,include,999.1333333333334,983.525,1006.9375,460.54162365072494,0.050836881614323044,120,0,0.08333333333333333,include,include,include,include
526620,20,female,NA,NA,NA,NA,NA,5,5,6,5,6,3,5,5,5,5,1,1,1,4,2,NA,NA,NA,NA,NA,NA,NA,NA,NA,NA,NA,NA,5,6,6,5,3,2,2,2,2,4,NA,NA,NA,5.444444444444445,3.75,2.125,NA,include,include,include,include,include,include,948.875,1133.75,856.4375,600.8925792574931,-0.46150095636505883,120,0,0.05,include,include,include,include
548565,23,female,6,5,5,6,5,NA,NA,NA,NA,NA,NA,NA,NA,NA,NA,NA,NA,NA,NA,NA,4,5,5,4,5,2,5,4,2,5,5,5,NA,NA,NA,NA,NA,NA,NA,NA,NA,NA,3,5,4.888888888888889,NA,NA,NA,4.2,include,include,include,include,include,include,745.5416666666667,686.375,775.125,371.6958387830398,0.23877049657207408,120,0,0.025,include,include,include,include
558041,28,female,NA,NA,NA,NA,NA,5,6,5,5,6,6,6,5,4,4,1,4,4,4,2,NA,NA,NA,NA,NA,NA,NA,NA,NA,NA,NA,NA,6,2,6,4,2,2,2,3,2,2,NA,NA,NA,5,3.875,2.75,NA,include,include,include,include,include,include,1155.2250000000001,1440.1999999999998,1012.7375000000001,709.8714934302361,-0.6021688488072938,120,0,0.008333333333333333,include,include,include,include
579249,54,female,4,5,5,6,5,NA,NA,NA,NA,NA,NA,NA,NA,NA,NA,NA,NA,NA,NA,NA,4,4,5,4,4,4,5,4,3,3,3,3,NA,NA,NA,NA,NA,NA,NA,NA,NA,NA,2,5,4.111111111111111,NA,NA,NA,4.1,include,include,include,include,include,include,743.3833333333334,758.225,735.9625,239.08042257655424,-0.0931172019861707,120,0,0.03333333333333333,include,include,include,include
617893,42,male,4,4,5,4,4,NA,NA,NA,NA,NA,NA,NA,NA,NA,NA,NA,NA,NA,NA,NA,4,3,5,5,4,5,3,4,4,5,3,4,NA,NA,NA,NA,NA,NA,NA,NA,NA,NA,3,2,4.111111111111111,NA,NA,NA,3.8,include,include,include,include,include,include,722.6416666666669,789.15,689.3875000000002,208.59791227527234,-0.4782526292418023,120,0,0.025,include,include,include,include
634062,32,male,NA,5,4,5,5,NA,NA,NA,NA,NA,NA,NA,NA,NA,NA,NA,NA,NA,NA,NA,6,3,5,6,5,5,4,6,3,6,5,5,NA,NA,NA,NA,NA,NA,NA,NA,NA,NA,2,5,4.75,NA,NA,NA,4.7,include,exclude,include,include,include,include,738.9083333333336,676.025,770.3499999999999,395.9782906330359,0.2382075033689499,120,0,0.06666666666666667,include,include,include,exclude
652538,35,male,NA,NA,NA,NA,NA,5,7,6,5,5,5,5,7,5,5,4,5,5,4,5,NA,NA,NA,NA,NA,NA,NA,NA,NA,NA,NA,NA,3,3,3,2,3,2,2,2,2,2,NA,NA,NA,4.333333333333333,4.25,3.625,NA,exclude,include,include,include,include,include,1297.375,1467.8,1212.1625,1153.0842168438755,-0.22169889784781666,120,0,0.175,include,include,include,exclude
668486,22,male,NA,NA,NA,NA,NA,5,5,4,4,4,3,5,5,6,4,4,5,3,3,3,NA,NA,NA,NA,NA,NA,NA,NA,NA,NA,NA,NA,2,3,3,5,2,3,3,3,4,3,NA,NA,NA,3.888888888888889,3.875,3.5,NA,include,include,include,include,include,include,724.4166666666666,781.4,695.9249999999998,260.1117272332366,-0.32860879018867356,120,0,0.16666666666666666,include,include,include,include
664326,46,male,NA,NA,NA,NA,NA,6,6,6,5,6,3,4,4,5,3,2,3,3,6,3,NA,NA,NA,NA,NA,NA,NA,NA,NA,NA,NA,NA,4,2,2,5,3,3,3,1,2,1,NA,NA,NA,4.666666666666667,3.5,2.625,NA,include,include,include,include,include,include,744.6083333333332,910.825,661.5,309.9006969123799,-0.8045319112996162,120,0,0.08333333333333333,include,include,include,include
194648,NA,not indicated,5,6,5,5,6,NA,NA,NA,NA,NA,NA,NA,NA,NA,NA,NA,NA,NA,NA,NA,5,4,6,5,6,4,4,5,3,6,5,3,NA,NA,NA,NA,NA,NA,NA,NA,NA,NA,2,5,4.888888888888889,NA,NA,NA,4.6,include,include,include,include,include,include,549.3250000000002,575.325,536.325,249.82532258904962,-0.15610907491612883,120,0,0.058333333333333334,include,include,include,include
173703,NA,not indicated,NA,NA,NA,NA,NA,6,5,5,5,5,5,6,6,6,6,2,3,2,4,3,NA,NA,NA,NA,NA,NA,NA,NA,NA,NA,NA,NA,2,2,3,4,4,6,4,2,1,2,NA,NA,NA,4.111111111111111,5.375,2.375,NA,include,include,include,include,include,include,1069.875,1305.7,951.9625000000002,719.065529937667,-0.4919405607311812,120,0,0.016666666666666666,include,include,include,include
167754,NA,not indicated,4,5,6,4,6,NA,NA,NA,NA,NA,NA,NA,NA,NA,NA,NA,NA,NA,NA,NA,5,4,6,5,5,4,6,6,5,6,5,3,NA,NA,NA,NA,NA,NA,NA,NA,NA,NA,6,5,4.888888888888889,NA,NA,NA,5.2,include,include,include,include,include,include,739.1919191919192,775.8,714.3728813559322,187.13640538320837,-0.32824782819933085,99,0,0.010101010101010102,exclude,include,include,exclude
501196,16,male,4,3,5,4,4,NA,NA,NA,NA,NA,NA,NA,NA,NA,NA,NA,NA,NA,NA,NA,4,5,6,5,5,4,4,5,3,4,2,5,NA,NA,NA,NA,NA,NA,NA,NA,NA,NA,4,4,3.7777777777777777,NA,NA,NA,4.6,include,include,include,include,include,include,693.725,647.65,716.7625,204.64201013214358,0.33772391091825193,120,0,0.025,include,include,include,include
217118,21,male,NA,NA,NA,NA,NA,4,5,5,2,5,5,5,5,5,5,2,3,1,1,3,NA,NA,NA,NA,NA,NA,NA,NA,NA,NA,NA,NA,4,3,1,1,5,4,3,1,1,1,NA,NA,NA,3.3333333333333335,4.625,1.625,NA,include,include,include,include,include,include,773.9916666666666,842.7,739.6375000000002,341.03590327842306,-0.3022042518375529,120,0,0.016666666666666666,include,include,include,include
217597,25,female,4,4,4,4,4,NA,NA,NA,NA,NA,NA,NA,NA,NA,NA,NA,NA,NA,NA,NA,4,4,5,4,3,4,4,4,3,3,5,3,NA,NA,NA,NA,NA,NA,NA,NA,NA,NA,3,4,3.7777777777777777,NA,NA,NA,3.9,include,include,include,include,include,include,509.2916666666667,516.1499999999999,505.8625,194.08727984821562,-0.05300450399451787,120,0,0.058333333333333334,include,include,include,include
309503,22,female,NA,NA,NA,NA,NA,5,5,5,5,4,3,3,4,3,3,4,2,4,2,4,NA,NA,NA,NA,NA,NA,NA,NA,NA,NA,NA,NA,5,2,4,5,3,2,2,2,2,2,NA,NA,NA,4.444444444444445,2.875,2.75,NA,include,include,include,include,include,include,671.025,731.375,640.85,247.17776621137193,-0.36623439635176697,120,0,0.016666666666666666,include,include,include,include
311846,58,female,NA,NA,NA,NA,NA,5,5,6,1,5,1,3,5,5,4,5,5,4,5,4,NA,NA,NA,NA,NA,NA,NA,NA,NA,NA,NA,NA,6,6,5,2,1,1,1,2,1,2,NA,NA,NA,4.555555555555555,2.625,3.5,NA,include,include,include,include,include,include,1154.475,1385.6,1038.9125,514.7752705809407,-0.6734734938000262,120,0,0,include,include,include,include
340489,17,female,4,5,4,4,5,NA,NA,NA,NA,NA,NA,NA,NA,NA,NA,NA,NA,NA,NA,NA,3,3,5,3,4,3,5,5,4,5,3,4,NA,NA,NA,NA,NA,NA,NA,NA,NA,NA,5,5,4.222222222222222,NA,NA,NA,4.1,include,include,include,include,include,include,613.075,661.875,588.675,328.93370286784676,-0.2225372449274651,120,0,0.058333333333333334,include,include,include,include
353222,29,female,5,2,6,5,5,NA,NA,NA,NA,NA,NA,NA,NA,NA,NA,NA,NA,NA,NA,NA,2,4,5,1,2,3,5,3,1,3,5,2,NA,NA,NA,NA,NA,NA,NA,NA,NA,NA,3,2,3.7777777777777777,NA,NA,NA,3,include,include,include,include,include,include,829.8166666666667,934.925,777.2625000000002,349.2929468871337,-0.4513761340017694,120,0,0.016666666666666666,include,include,include,include
393892,18,female,4,4,6,5,4,NA,NA,NA,NA,NA,NA,NA,NA,NA,NA,NA,NA,NA,NA,NA,5,3,5,6,5,5,4,5,4,5,3,4,NA,NA,NA,NA,NA,NA,NA,NA,NA,NA,4,5,4.333333333333333,NA,NA,NA,4.7,include,include,include,include,include,include,744.775,822.425,705.95,208.46620597500558,-0.5587236523792488,120,0,0.05,include,include,include,include
395088,33,male,NA,NA,NA,NA,NA,6,6,5,6,5,5,4,4,6,2,1,4,4,4,1,NA,NA,NA,NA,NA,NA,NA,NA,NA,NA,NA,NA,5,5,2,2,2,5,5,2,5,2,NA,NA,NA,4.666666666666667,4.125,2.875,NA,include,include,include,include,include,include,1189.808333333333,1282.025,1143.7,851.8322643881604,-0.16238525562230702,120,0,0.03333333333333333,include,include,include,include
440645,27,female,NA,NA,NA,NA,NA,5,6,5,5,5,5,4,5,6,5,2,4,4,2,4,NA,NA,NA,NA,NA,NA,NA,NA,NA,NA,NA,NA,5,6,5,4,5,5,5,3,1,2,NA,NA,NA,5.111111111111111,5,2.75,NA,include,include,include,include,include,include,965,1418.625,738.1875,858.2667603564599,-0.7928042089354562,120,0,0.075,include,include,include,include
448235,39,female,6,1,2,3,6,NA,NA,NA,NA,NA,NA,NA,NA,NA,NA,NA,NA,NA,NA,NA,6,5,6,6,6,6,5,6,1,6,1,2,NA,NA,NA,NA,NA,NA,NA,NA,NA,NA,6,6,3.111111111111111,NA,NA,NA,5.8,include,include,include,include,include,include,1055.4916666666666,1300.5,932.9875,659.6461872602213,-0.5571357905158655,120,0,0.1,include,include,include,include
460603,32,female,NA,NA,NA,NA,NA,6,6,6,6,4,2,5,5,5,2,2,4,5,4,3,NA,NA,NA,NA,NA,NA,NA,NA,NA,NA,NA,NA,4,5,5,5,1,1,1,2,2,3,NA,NA,NA,5.222222222222222,2.75,3.125,NA,include,include,include,include,include,include,687.025,705.125,677.975,195.14784149976347,-0.1391252897871939,120,0,0.03333333333333333,include,include,include,include
497745,18,female,NA,NA,NA,NA,NA,4,5,3,3,3,4,5,4,4,5,1,3,3,5,3,NA,NA,NA,NA,NA,NA,NA,NA,NA,NA,NA,NA,2,4,2,3,3,3,3,3,2,4,NA,NA,NA,3.2222222222222223,3.875,3,NA,include,include,include,include,include,include,897.9416666666667,904.7,894.5625,353.80601188733226,-0.028652707018523703,120,0,0.21666666666666667,include,include,include,include
505557,44,female,6,1,1,4,6,NA,NA,NA,NA,NA,NA,NA,NA,NA,NA,NA,NA,NA,NA,NA,4,1,4,6,4,6,6,6,1,3,6,3,NA,NA,NA,NA,NA,NA,NA,NA,NA,NA,4,1,3.4444444444444446,NA,NA,NA,4.2,include,include,include,include,include,include,738.2333333333333,757.925,728.3875,203.6692298362048,-0.14502681639123693,120,0,0.09166666666666666,include,include,include,include
523839,28,female,6,6,5,6,6,NA,NA,NA,NA,NA,NA,NA,NA,NA,NA,NA,NA,NA,NA,NA,6,2,6,4,6,4,3,4,4,6,6,5,NA,NA,NA,NA,NA,NA,NA,NA,NA,NA,6,4,5.555555555555555,NA,NA,NA,4.5,include,include,include,include,include,include,888.2833333333333,864.425,900.2125,395.61789100882993,0.0904597613336988,120,0,0.075,include,include,include,include
549211,48,female,NA,NA,NA,NA,NA,2,2,5,5,2,5,5,6,5,5,6,5,4,2,6,NA,NA,NA,NA,NA,NA,NA,NA,NA,NA,NA,NA,5,3,5,5,5,5,1,5,2,1,NA,NA,NA,3.7777777777777777,4.625,3.875,NA,include,include,include,include,include,include,894.75,1138.875,772.6875,386.011761261147,-0.9486433750195105,120,0,0.05,include,include,include,include
596741,62,female,NA,NA,NA,NA,NA,6,4,3,3,4,6,6,5,4,6,5,5,5,4,3,NA,NA,NA,NA,NA,NA,NA,NA,NA,NA,NA,NA,2,3,3,4,4,2,2,3,2,3,NA,NA,NA,3.5555555555555554,4.375,3.75,NA,include,include,include,include,include,include,994.4749999999998,1364.75,809.3375,934.0747362042968,-0.5946124849248922,120,0,0.041666666666666664,include,include,include,include
628838,18,female,NA,NA,NA,NA,NA,4,5,4,4,4,3,3,4,3,2,4,5,5,5,5,NA,NA,NA,NA,NA,NA,NA,NA,NA,NA,NA,NA,2,3,2,2,3,2,2,4,3,4,NA,NA,NA,3.3333333333333335,2.75,4.375,NA,include,include,include,include,include,include,727.575,845.2,668.7625,319.532633030538,-0.5521736491406739,120,0,0.03333333333333333,include,include,include,include
648950,32,male,6,5,0,6,5,NA,NA,NA,NA,NA,NA,NA,NA,NA,NA,NA,NA,NA,NA,NA,5,5,0,5,3,4,5,5,3,5,5,5,NA,NA,NA,NA,NA,NA,NA,NA,NA,NA,4,7,4.444444444444445,NA,NA,NA,4.3,exclude,include,include,include,include,include,1006.8333333333334,1159.575,930.4625,445.09321719028196,-0.5147517220017579,120,0,0.03333333333333333,include,include,include,exclude
199840,NA,not indicated,5,2,2,3,4,NA,NA,NA,NA,NA,NA,NA,NA,NA,NA,NA,NA,NA,NA,NA,5,5,6,5,5,5,4,5,2,3,4,2,NA,NA,NA,NA,NA,NA,NA,NA,NA,NA,4,6,3,NA,NA,NA,5,include,include,include,include,include,include,907.1666666666666,1021.725,849.8875,374.4204335562176,-0.45894263400076785,120,0,0.06666666666666667,include,include,include,include
199166,NA,not indicated,4,6,4,4,6,NA,NA,NA,NA,NA,NA,NA,NA,NA,NA,NA,NA,NA,NA,NA,5,5,6,5,6,6,6,4,3,5,6,2,NA,NA,NA,NA,NA,NA,NA,NA,NA,NA,5,6,4.444444444444445,NA,NA,NA,5.4,include,include,include,include,include,include,868.9000000000002,1109.7249999999997,748.4875,558.1881312926373,-0.6471608401336938,120,0,0.06666666666666667,include,include,include,include
195431,NA,not indicated,3,2,3,2,2,NA,NA,NA,NA,NA,NA,NA,NA,NA,NA,NA,NA,NA,NA,NA,3,5,5,6,3,3,4,6,2,5,3,4,NA,NA,NA,NA,NA,NA,NA,NA,NA,NA,4,2,2.888888888888889,NA,NA,NA,4.1,include,include,include,include,include,include,761.3416666666667,887.925,698.05,380.7159221458305,-0.49873143978273055,120,0,0.075,include,include,include,include
183947,NA,not indicated,NA,NA,NA,NA,NA,6,6,6,2,6,6,1,3,5,1,4,4,1,2,4,NA,NA,NA,NA,NA,NA,NA,NA,NA,NA,NA,NA,6,6,1,NA,3,2,4,1,6,1,NA,NA,NA,4.875,3.125,2.875,NA,include,include,exclude,include,include,include,752.8666666666666,891.375,683.6125,353.3587443956869,-0.5879647901605346,120,0,0.041666666666666664,include,include,include,exclude
179074,NA,not indicated,NA,NA,NA,NA,NA,2,3,6,6,5,3,5,5,3,1,1,5,2,2,5,NA,NA,NA,NA,NA,NA,NA,NA,NA,NA,NA,NA,1,4,3,1,6,4,2,1,2,1,NA,NA,NA,3.4444444444444446,3.625,2.375,NA,include,include,include,include,include,include,560.3416666666667,560.85,560.0875,195.37064519932937,-0.0039028381117444497,120,0,0.075,include,include,include,include
164311,NA,not indicated,NA,NA,NA,NA,NA,6,6,6,6,6,6,5,5,6,6,1,5,2,2,2,NA,NA,NA,NA,NA,NA,NA,NA,NA,NA,NA,NA,5,6,6,6,5,5,3,2,1,2,NA,NA,NA,5.888888888888889,5.125,2.125,NA,include,include,include,include,include,include,810.2833333333333,902.8,764.025,384.8281114343649,-0.36061554724457545,120,0,0.025,include,include,include,include
